# Numerical radiation field:  ISRF
# wavelength: nm
# intensity: photons.s-1.cm-2.nm-1
# wavelength intensity
91.20000 2.83384e+05
92.20000 3.76370e+05
93.20000 4.68067e+05
94.20000 5.58049e+05
95.20000 6.45967e+05
96.20000 7.31539e+05
97.20000 8.14544e+05
98.20000 8.94811e+05
99.20000 9.72209e+05
100.20000 1.04665e+06
101.20000 1.11807e+06
102.20000 1.18643e+06
103.20000 1.25173e+06
104.20000 1.31398e+06
105.20000 1.37319e+06
106.20000 1.42941e+06
107.20000 1.48268e+06
108.20000 1.53306e+06
109.20000 1.58062e+06
110.20000 1.62542e+06
111.20000 1.66755e+06
112.20000 1.70708e+06
113.20000 1.74409e+06
114.20000 1.77866e+06
115.20000 1.81088e+06
116.20000 1.84083e+06
117.20000 1.86859e+06
118.20000 1.89425e+06
119.20000 1.91790e+06
120.20000 1.93960e+06
121.20000 1.95944e+06
122.20000 1.97751e+06
123.20000 1.99386e+06
124.20000 2.00859e+06
125.20000 2.02176e+06
126.20000 2.03344e+06
127.20000 2.04369e+06
128.20000 2.05260e+06
129.20000 2.06021e+06
130.20000 2.06659e+06
131.20000 2.07180e+06
132.20000 2.07590e+06
133.20000 2.07894e+06
134.20000 2.08097e+06
135.20000 2.08205e+06
136.20000 2.08222e+06
137.20000 2.08153e+06
138.20000 2.08003e+06
139.20000 2.07776e+06
140.20000 2.07476e+06
141.20000 2.07107e+06
142.20000 2.06673e+06
143.20000 2.06177e+06
144.20000 2.05623e+06
145.20000 2.05015e+06
146.20000 2.04355e+06
147.20000 2.03646e+06
148.20000 2.02892e+06
149.20000 2.02095e+06
150.20000 2.01258e+06
151.20000 2.00384e+06
152.20000 1.99474e+06
153.20000 1.98531e+06
154.20000 1.97558e+06
155.20000 1.96555e+06
156.20000 1.95527e+06
157.20000 1.94473e+06
158.20000 1.93397e+06
159.20000 1.92299e+06
160.20000 1.91182e+06
161.20000 1.90047e+06
162.20000 1.88895e+06
163.20000 1.87729e+06
164.20000 1.86548e+06
165.20000 1.85356e+06
166.20000 1.84152e+06
167.20000 1.82937e+06
168.20000 1.81714e+06
169.20000 1.80483e+06
170.20000 1.79245e+06
171.20000 1.78002e+06
172.20000 1.76753e+06
173.20000 1.75499e+06
174.20000 1.74243e+06
175.20000 1.72983e+06
176.20000 1.71722e+06
177.20000 1.70459e+06
178.20000 1.69196e+06
179.20000 1.67933e+06
180.20000 1.66670e+06
181.20000 1.65408e+06
182.20000 1.64148e+06
183.20000 1.62890e+06
184.20000 1.61635e+06
185.20000 1.60383e+06
186.20000 1.59134e+06
187.20000 1.57889e+06
188.20000 1.56648e+06
189.20000 1.55411e+06
190.20000 1.54180e+06
191.20000 1.52953e+06
192.20000 1.51732e+06
193.20000 1.50516e+06
194.20000 1.49307e+06
195.20000 1.48103e+06
196.20000 1.46906e+06
197.20000 1.45716e+06
198.20000 1.44532e+06
199.20000 1.43355e+06
200.20000 1.43385e+06
201.20000 1.43886e+06
202.20000 1.44386e+06
203.20000 1.44885e+06
204.20000 1.45384e+06
205.20000 1.45882e+06
206.20000 1.46379e+06
207.20000 1.46876e+06
208.20000 1.47372e+06
209.20000 1.47867e+06
210.20000 1.48361e+06
211.20000 1.48855e+06
212.20000 1.49348e+06
213.20000 1.49840e+06
214.20000 1.50332e+06
215.20000 1.50823e+06
216.20000 1.51313e+06
217.20000 1.51803e+06
218.20000 1.52292e+06
219.20000 1.52780e+06
220.20000 1.53267e+06
221.20000 1.53754e+06
222.20000 1.54241e+06
223.20000 1.54726e+06
224.20000 1.55211e+06
225.20000 1.55695e+06
226.20000 1.56179e+06
227.20000 1.56662e+06
228.20000 1.57144e+06
229.20000 1.57626e+06
230.20000 1.58107e+06
231.20000 1.58588e+06
232.20000 1.59068e+06
233.20000 1.59547e+06
234.20000 1.60025e+06
235.20000 1.60503e+06
236.20000 1.60981e+06
237.20000 1.61457e+06
238.20000 1.61934e+06
239.20000 1.62409e+06
240.20000 1.62884e+06
241.20000 1.63359e+06
242.20000 1.63832e+06
243.20000 1.64306e+06
244.20000 1.64778e+06
245.20000 1.65250e+06
246.20000 1.65722e+06
247.20000 1.66193e+06
248.20000 1.66663e+06
249.20000 1.67133e+06
250.20000 1.67602e+06
251.20000 1.68071e+06
252.20000 1.68539e+06
253.20000 1.69006e+06
254.20000 1.69473e+06
255.20000 1.69940e+06
256.20000 1.70405e+06
257.20000 1.70871e+06
258.20000 1.71335e+06
259.20000 1.71800e+06
260.20000 1.72263e+06
261.20000 1.72727e+06
262.20000 1.73189e+06
263.20000 1.73651e+06
264.20000 1.74113e+06
265.20000 1.74574e+06
266.20000 1.75034e+06
267.20000 1.75494e+06
268.20000 1.75954e+06
269.20000 1.76413e+06
270.20000 1.76871e+06
271.20000 1.77329e+06
272.20000 1.77787e+06
273.20000 1.78244e+06
274.20000 1.78700e+06
275.20000 1.79156e+06
276.20000 1.79612e+06
277.20000 1.80067e+06
278.20000 1.80521e+06
279.20000 1.80975e+06
280.20000 1.81429e+06
281.20000 1.81882e+06
282.20000 1.82334e+06
283.20000 1.82786e+06
284.20000 1.83238e+06
285.20000 1.83689e+06
286.20000 1.84139e+06
287.20000 1.84590e+06
288.20000 1.85039e+06
289.20000 1.85488e+06
290.20000 1.85937e+06
291.20000 1.86385e+06
292.20000 1.86833e+06
293.20000 1.87281e+06
294.20000 1.87727e+06
295.20000 1.88174e+06
296.20000 1.88620e+06
297.20000 1.89065e+06
298.20000 1.89510e+06
299.20000 1.89955e+06
300.20000 1.90399e+06
301.20000 1.90843e+06
302.20000 1.91286e+06
303.20000 1.91729e+06
304.20000 1.92172e+06
305.20000 1.92614e+06
306.20000 1.93055e+06
307.20000 1.93496e+06
308.20000 1.93937e+06
309.20000 1.94377e+06
310.20000 1.94817e+06
311.20000 1.95257e+06
312.20000 1.95696e+06
313.20000 1.96134e+06
314.20000 1.96572e+06
315.20000 1.97010e+06
316.20000 1.97447e+06
317.20000 1.97884e+06
318.20000 1.98321e+06
319.20000 1.98757e+06
320.20000 1.99192e+06
321.20000 1.99628e+06
322.20000 2.00063e+06
323.20000 2.00497e+06
324.20000 2.00931e+06
325.20000 2.01365e+06
326.20000 2.01798e+06
327.20000 2.02231e+06
328.20000 2.02663e+06
329.20000 2.03095e+06
330.20000 2.03527e+06
331.20000 2.03958e+06
332.20000 2.04389e+06
333.20000 2.04820e+06
334.20000 2.05250e+06
335.20000 2.05679e+06
336.20000 2.06109e+06
337.20000 2.06538e+06
338.20000 2.06966e+06
339.20000 2.07394e+06
340.20000 2.07822e+06
341.20000 2.08250e+06
342.20000 2.08677e+06
343.20000 2.09103e+06
344.20000 2.09530e+06
345.20000 2.09956e+06
346.20000 2.10381e+06
347.20000 2.10806e+06
348.20000 2.11231e+06
349.20000 2.11656e+06
350.20000 2.12080e+06
351.20000 2.12503e+06
352.20000 2.12927e+06
353.20000 2.13350e+06
354.20000 2.13773e+06
355.20000 2.14195e+06
356.20000 2.14617e+06
357.20000 2.15038e+06
358.20000 2.15460e+06
359.20000 2.15880e+06
360.20000 2.16301e+06
361.20000 2.16721e+06
362.20000 2.17141e+06
363.20000 2.17560e+06
364.20000 2.17980e+06
365.20000 2.18398e+06
366.20000 2.18817e+06
367.20000 2.19235e+06
368.20000 2.19653e+06
369.20000 2.20070e+06
370.20000 2.20487e+06
371.20000 2.20904e+06
372.20000 2.21320e+06
373.20000 2.21736e+06
374.20000 2.22152e+06
375.20000 2.22568e+06
376.20000 2.22983e+06
377.20000 2.23397e+06
378.20000 2.23812e+06
379.20000 2.24226e+06
380.20000 2.24640e+06
381.20000 2.25053e+06
382.20000 2.25466e+06
383.20000 2.25879e+06
384.20000 2.26291e+06
385.20000 2.26704e+06
386.20000 2.27115e+06
387.20000 2.27527e+06
388.20000 2.27938e+06
389.20000 2.28349e+06
390.20000 2.28759e+06
391.20000 2.29170e+06
392.20000 2.29580e+06
393.20000 2.29989e+06
394.20000 2.30398e+06
395.20000 2.30807e+06
396.20000 2.31216e+06
397.20000 2.31624e+06
398.20000 2.32032e+06
399.20000 2.32440e+06
400.20000 2.32848e+06
401.20000 2.33255e+06
402.20000 2.33662e+06
403.20000 2.34068e+06
404.20000 2.34474e+06
405.20000 2.34880e+06
406.20000 2.35286e+06
407.20000 2.35691e+06
408.20000 2.36096e+06
409.20000 2.36501e+06
410.20000 2.36905e+06
411.20000 2.37309e+06
412.20000 2.37713e+06
413.20000 2.38117e+06
414.20000 2.38520e+06
415.20000 2.38923e+06
416.20000 2.39326e+06
417.20000 2.39728e+06
418.20000 2.40130e+06
419.20000 2.40532e+06
420.20000 2.40933e+06
421.20000 2.41335e+06
422.20000 2.41736e+06
423.20000 2.42136e+06
424.20000 2.42537e+06
425.20000 2.42937e+06
426.20000 2.43337e+06
427.20000 2.43736e+06
428.20000 2.44135e+06
429.20000 2.44534e+06
430.20000 2.44933e+06
431.20000 2.45331e+06
432.20000 2.45729e+06
433.20000 2.46127e+06
434.20000 2.46525e+06
435.20000 2.46922e+06
436.20000 2.47319e+06
437.20000 2.47716e+06
438.20000 2.48112e+06
439.20000 2.48509e+06
440.20000 2.48905e+06
441.20000 2.49300e+06
442.20000 2.49696e+06
443.20000 2.50091e+06
444.20000 2.50486e+06
445.20000 2.50880e+06
446.20000 2.51275e+06
447.20000 2.51669e+06
448.20000 2.52062e+06
449.20000 2.52456e+06
450.20000 2.52849e+06
451.20000 2.53242e+06
452.20000 2.53635e+06
453.20000 2.54028e+06
454.20000 2.54420e+06
455.20000 2.54812e+06
456.20000 2.55203e+06
457.20000 2.55595e+06
458.20000 2.55986e+06
459.20000 2.56377e+06
460.20000 2.56768e+06
461.20000 2.57158e+06
462.20000 2.57548e+06
463.20000 2.57938e+06
464.20000 2.58328e+06
465.20000 2.58717e+06
466.20000 2.59107e+06
467.20000 2.59496e+06
468.20000 2.59884e+06
469.20000 2.60273e+06
470.20000 2.60661e+06
471.20000 2.61049e+06
472.20000 2.61436e+06
473.20000 2.61824e+06
474.20000 2.62211e+06
475.20000 2.62598e+06
476.20000 2.62985e+06
477.20000 2.63371e+06
478.20000 2.63757e+06
479.20000 2.64143e+06
480.20000 2.64529e+06
481.20000 2.64915e+06
482.20000 2.65300e+06
483.20000 2.65685e+06
484.20000 2.66070e+06
485.20000 2.66454e+06
486.20000 2.66838e+06
487.20000 2.67222e+06
488.20000 2.67606e+06
489.20000 2.67990e+06
490.20000 2.68373e+06
491.20000 2.68756e+06
492.20000 2.69139e+06
493.20000 2.69522e+06
494.20000 2.69904e+06
495.20000 2.70287e+06
496.20000 2.70668e+06
497.20000 2.71050e+06
498.20000 2.71432e+06
499.20000 2.71813e+06
500.20000 2.72194e+06
501.20000 2.72575e+06
502.20000 2.72955e+06
503.20000 2.73336e+06
504.20000 2.73716e+06
505.20000 2.74096e+06
506.20000 2.74475e+06
507.20000 2.74855e+06
508.20000 2.75234e+06
509.20000 2.75613e+06
510.20000 2.75992e+06
511.20000 2.76370e+06
512.20000 2.76749e+06
513.20000 2.77127e+06
514.20000 2.77505e+06
515.20000 2.77882e+06
516.20000 2.78260e+06
517.20000 2.78637e+06
518.20000 2.79014e+06
519.20000 2.79391e+06
520.20000 2.79767e+06
521.20000 2.80144e+06
522.20000 2.80520e+06
523.20000 2.80896e+06
524.20000 2.81272e+06
525.20000 2.81647e+06
526.20000 2.82022e+06
527.20000 2.82397e+06
528.20000 2.82772e+06
529.20000 2.83147e+06
530.20000 2.83521e+06
531.20000 2.83896e+06
532.20000 2.84270e+06
533.20000 2.84643e+06
534.20000 2.85017e+06
535.20000 2.85390e+06
536.20000 2.85763e+06
537.20000 2.86136e+06
538.20000 2.86509e+06
539.20000 2.86882e+06
540.20000 2.87254e+06
541.20000 2.87626e+06
542.20000 2.87998e+06
543.20000 2.88370e+06
544.20000 2.88741e+06
545.20000 2.89113e+06
546.20000 2.89484e+06
547.20000 2.89855e+06
548.20000 2.90225e+06
549.20000 2.90596e+06
550.20000 2.90966e+06
551.20000 2.91336e+06
552.20000 2.91706e+06
553.20000 2.92076e+06
554.20000 2.92445e+06
555.20000 2.92814e+06
556.20000 2.93184e+06
557.20000 2.93552e+06
558.20000 2.93921e+06
559.20000 2.94290e+06
560.20000 2.94658e+06
561.20000 2.95026e+06
562.20000 2.95394e+06
563.20000 2.95762e+06
564.20000 2.96129e+06
565.20000 2.96496e+06
566.20000 2.96864e+06
567.20000 2.97230e+06
568.20000 2.97597e+06
569.20000 2.97964e+06
570.20000 2.98330e+06
571.20000 2.98696e+06
572.20000 2.99062e+06
573.20000 2.99428e+06
574.20000 2.99793e+06
575.20000 3.00159e+06
576.20000 3.00524e+06
577.20000 3.00889e+06
578.20000 3.01254e+06
579.20000 3.01618e+06
580.20000 3.01983e+06
581.20000 3.02347e+06
582.20000 3.02711e+06
583.20000 3.03075e+06
584.20000 3.03439e+06
585.20000 3.03802e+06
586.20000 3.04166e+06
587.20000 3.04529e+06
588.20000 3.04892e+06
589.20000 3.05254e+06
590.20000 3.05617e+06
591.20000 3.05979e+06
592.20000 3.06341e+06
593.20000 3.06703e+06
594.20000 3.07065e+06
595.20000 3.07427e+06
596.20000 3.07788e+06
597.20000 3.08150e+06
598.20000 3.08511e+06
599.20000 3.08872e+06
600.20000 3.09232e+06
601.20000 3.09593e+06
602.20000 3.09953e+06
603.20000 3.10314e+06
604.20000 3.10674e+06
605.20000 3.11033e+06
606.20000 3.11393e+06
607.20000 3.11753e+06
608.20000 3.12112e+06
609.20000 3.12471e+06
610.20000 3.12830e+06
611.20000 3.13189e+06
612.20000 3.13547e+06
613.20000 3.13906e+06
614.20000 3.14264e+06
615.20000 3.14622e+06
616.20000 3.14980e+06
617.20000 3.15338e+06
618.20000 3.15695e+06
619.20000 3.16053e+06
620.20000 3.16410e+06
621.20000 3.16767e+06
622.20000 3.17124e+06
623.20000 3.17481e+06
624.20000 3.17837e+06
625.20000 3.18193e+06
626.20000 3.18550e+06
627.20000 3.18906e+06
628.20000 3.19261e+06
629.20000 3.19617e+06
630.20000 3.19973e+06
631.20000 3.20328e+06
632.20000 3.20683e+06
633.20000 3.21038e+06
634.20000 3.21393e+06
635.20000 3.21748e+06
636.20000 3.22102e+06
637.20000 3.22456e+06
638.20000 3.22811e+06
639.20000 3.23165e+06
640.20000 3.23518e+06
641.20000 3.23872e+06
642.20000 3.24225e+06
643.20000 3.24579e+06
644.20000 3.24932e+06
645.20000 3.25285e+06
646.20000 3.25638e+06
647.20000 3.25990e+06
648.20000 3.26343e+06
649.20000 3.26695e+06
650.20000 3.27047e+06
651.20000 3.27399e+06
652.20000 3.27751e+06
653.20000 3.28103e+06
654.20000 3.28455e+06
655.20000 3.28806e+06
656.20000 3.29157e+06
657.20000 3.29508e+06
658.20000 3.29859e+06
659.20000 3.30210e+06
660.20000 3.30560e+06
661.20000 3.30911e+06
662.20000 3.31261e+06
663.20000 3.31611e+06
664.20000 3.31961e+06
665.20000 3.32311e+06
666.20000 3.32660e+06
667.20000 3.33010e+06
668.20000 3.33359e+06
669.20000 3.33708e+06
670.20000 3.34057e+06
671.20000 3.34406e+06
672.20000 3.34755e+06
673.20000 3.35103e+06
674.20000 3.35452e+06
675.20000 3.35800e+06
676.20000 3.36148e+06
677.20000 3.36496e+06
678.20000 3.36844e+06
679.20000 3.37191e+06
680.20000 3.37539e+06
681.20000 3.37886e+06
682.20000 3.38233e+06
683.20000 3.38580e+06
684.20000 3.38927e+06
685.20000 3.39274e+06
686.20000 3.39620e+06
687.20000 3.39966e+06
688.20000 3.40313e+06
689.20000 3.40659e+06
690.20000 3.41005e+06
691.20000 3.41350e+06
692.20000 3.41696e+06
693.20000 3.42042e+06
694.20000 3.42387e+06
695.20000 3.42732e+06
696.20000 3.43077e+06
697.20000 3.43422e+06
698.20000 3.43767e+06
699.20000 3.44111e+06
700.20000 3.44456e+06
701.20000 3.44800e+06
702.20000 3.45144e+06
703.20000 3.45488e+06
704.20000 3.45832e+06
705.20000 3.46176e+06
706.20000 3.46519e+06
707.20000 3.46863e+06
708.20000 3.47206e+06
709.20000 3.47549e+06
710.20000 3.47892e+06
711.20000 3.48235e+06
712.20000 3.48577e+06
713.20000 3.48920e+06
714.20000 3.49262e+06
715.20000 3.49605e+06
716.20000 3.49947e+06
717.20000 3.50289e+06
718.20000 3.50631e+06
719.20000 3.50972e+06
720.20000 3.51314e+06
721.20000 3.51655e+06
722.20000 3.51996e+06
723.20000 3.52337e+06
724.20000 3.52678e+06
725.20000 3.53019e+06
726.20000 3.53360e+06
727.20000 3.53700e+06
728.20000 3.54041e+06
729.20000 3.54381e+06
730.20000 3.54721e+06
731.20000 3.55061e+06
732.20000 3.55401e+06
733.20000 3.55741e+06
734.20000 3.56080e+06
735.20000 3.56420e+06
736.20000 3.56759e+06
737.20000 3.57098e+06
738.20000 3.57437e+06
739.20000 3.57776e+06
740.20000 3.58115e+06
741.20000 3.58453e+06
742.20000 3.58792e+06
743.20000 3.59130e+06
744.20000 3.59468e+06
745.20000 3.59806e+06
746.20000 3.60144e+06
747.20000 3.60482e+06
748.20000 3.60820e+06
749.20000 3.61157e+06
750.20000 3.61495e+06
751.20000 3.61832e+06
752.20000 3.62169e+06
753.20000 3.62506e+06
754.20000 3.62843e+06
755.20000 3.63179e+06
756.20000 3.63516e+06
757.20000 3.63852e+06
758.20000 3.64189e+06
759.20000 3.64525e+06
760.20000 3.64861e+06
761.20000 3.65197e+06
762.20000 3.65533e+06
763.20000 3.65868e+06
764.20000 3.66204e+06
765.20000 3.66539e+06
766.20000 3.66874e+06
767.20000 3.67210e+06
768.20000 3.67545e+06
769.20000 3.67879e+06
770.20000 3.68214e+06
771.20000 3.68549e+06
772.20000 3.68883e+06
773.20000 3.69217e+06
774.20000 3.69552e+06
775.20000 3.69886e+06
776.20000 3.70220e+06
777.20000 3.70553e+06
778.20000 3.70887e+06
779.20000 3.71221e+06
780.20000 3.71554e+06
781.20000 3.71887e+06
782.20000 3.72221e+06
783.20000 3.72554e+06
784.20000 3.72887e+06
785.20000 3.73219e+06
786.20000 3.73552e+06
787.20000 3.73885e+06
788.20000 3.74217e+06
789.20000 3.74549e+06
790.20000 3.74881e+06
791.20000 3.75213e+06
792.20000 3.75545e+06
793.20000 3.75877e+06
794.20000 3.76209e+06
795.20000 3.76540e+06
796.20000 3.76872e+06
797.20000 3.77203e+06
798.20000 3.77534e+06
799.20000 3.77865e+06
800.20000 3.78196e+06
801.20000 3.78527e+06
802.20000 3.78857e+06
803.20000 3.79188e+06
804.20000 3.79518e+06
805.20000 3.79849e+06
806.20000 3.80179e+06
807.20000 3.80509e+06
808.20000 3.80839e+06
809.20000 3.81169e+06
810.20000 3.81498e+06
811.20000 3.81828e+06
812.20000 3.82157e+06
813.20000 3.82486e+06
814.20000 3.82816e+06
815.20000 3.83145e+06
816.20000 3.83474e+06
817.20000 3.83802e+06
818.20000 3.84131e+06
819.20000 3.84460e+06
820.20000 3.84788e+06
821.20000 3.85117e+06
822.20000 3.85445e+06
823.20000 3.85773e+06
824.20000 3.86101e+06
825.20000 3.86429e+06
826.20000 3.86756e+06
827.20000 3.87084e+06
828.20000 3.87412e+06
829.20000 3.87739e+06
830.20000 3.88066e+06
831.20000 3.88393e+06
832.20000 3.88720e+06
833.20000 3.89047e+06
834.20000 3.89374e+06
835.20000 3.89701e+06
836.20000 3.90027e+06
837.20000 3.90354e+06
838.20000 3.90680e+06
839.20000 3.91006e+06
840.20000 3.91332e+06
841.20000 3.91658e+06
842.20000 3.91984e+06
843.20000 3.92310e+06
844.20000 3.92636e+06
845.20000 3.92961e+06
846.20000 3.93286e+06
847.20000 3.93612e+06
848.20000 3.93937e+06
849.20000 3.94262e+06
850.20000 3.94587e+06
851.20000 3.94912e+06
852.20000 3.95236e+06
853.20000 3.95561e+06
854.20000 3.95886e+06
855.20000 3.96210e+06
856.20000 3.96534e+06
857.20000 3.96858e+06
858.20000 3.97182e+06
859.20000 3.97506e+06
860.20000 3.97830e+06
861.20000 3.98154e+06
862.20000 3.98477e+06
863.20000 3.98801e+06
864.20000 3.99124e+06
865.20000 3.99447e+06
866.20000 3.99770e+06
867.20000 4.00093e+06
868.20000 4.00416e+06
869.20000 4.00739e+06
870.20000 4.01062e+06
871.20000 4.01384e+06
872.20000 4.01707e+06
873.20000 4.02029e+06
874.20000 4.02351e+06
875.20000 4.02673e+06
876.20000 4.02995e+06
877.20000 4.03317e+06
878.20000 4.03639e+06
879.20000 4.03961e+06
880.20000 4.04282e+06
881.20000 4.04604e+06
882.20000 4.04925e+06
883.20000 4.05246e+06
884.20000 4.05568e+06
885.20000 4.05889e+06
886.20000 4.06210e+06
887.20000 4.06530e+06
888.20000 4.06851e+06
889.20000 4.07172e+06
890.20000 4.07492e+06
891.20000 4.07813e+06
892.20000 4.08133e+06
893.20000 4.08453e+06
894.20000 4.08773e+06
895.20000 4.09093e+06
896.20000 4.09413e+06
897.20000 4.09732e+06
898.20000 4.10052e+06
899.20000 4.10372e+06
900.20000 4.10691e+06
901.20000 4.11010e+06
902.20000 4.11330e+06
903.20000 4.11649e+06
904.20000 4.11968e+06
905.20000 4.12286e+06
906.20000 4.12605e+06
907.20000 4.12924e+06
908.20000 4.13242e+06
909.20000 4.13561e+06
910.20000 4.13879e+06
911.20000 4.14198e+06
912.20000 4.14516e+06
913.20000 4.14834e+06
914.20000 4.15152e+06
915.20000 4.15469e+06
916.20000 4.15787e+06
917.20000 4.16105e+06
918.20000 4.16422e+06
919.20000 4.16740e+06
920.20000 4.17057e+06
921.20000 4.17374e+06
922.20000 4.17691e+06
923.20000 4.18008e+06
924.20000 4.18325e+06
925.20000 4.18642e+06
926.20000 4.18959e+06
927.20000 4.19275e+06
928.20000 4.19592e+06
929.20000 4.19908e+06
930.20000 4.20224e+06
931.20000 4.20541e+06
932.20000 4.20857e+06
933.20000 4.21173e+06
934.20000 4.21489e+06
935.20000 4.21804e+06
936.20000 4.22120e+06
937.20000 4.22436e+06
938.20000 4.22751e+06
939.20000 4.23066e+06
940.20000 4.23382e+06
941.20000 4.23697e+06
942.20000 4.24012e+06
943.20000 4.24327e+06
944.20000 4.24642e+06
945.20000 4.24957e+06
946.20000 4.25271e+06
947.20000 4.25586e+06
948.20000 4.25900e+06
949.20000 4.26215e+06
950.20000 4.26529e+06
951.20000 4.26843e+06
952.20000 4.27157e+06
953.20000 4.27471e+06
954.20000 4.27785e+06
955.20000 4.28099e+06
956.20000 4.28412e+06
957.20000 4.28726e+06
958.20000 4.29039e+06
959.20000 4.29353e+06
960.20000 4.29666e+06
961.20000 4.29979e+06
962.20000 4.30292e+06
963.20000 4.30605e+06
964.20000 4.30918e+06
965.20000 4.31231e+06
966.20000 4.31544e+06
967.20000 4.31856e+06
968.20000 4.32169e+06
969.20000 4.32481e+06
970.20000 4.32794e+06
971.20000 4.33106e+06
972.20000 4.33418e+06
973.20000 4.33730e+06
974.20000 4.34042e+06
975.20000 4.34354e+06
976.20000 4.34665e+06
977.20000 4.34977e+06
978.20000 4.35289e+06
979.20000 4.35600e+06
980.20000 4.35911e+06
981.20000 4.36223e+06
982.20000 4.36534e+06
983.20000 4.36845e+06
984.20000 4.37156e+06
985.20000 4.37467e+06
986.20000 4.37777e+06
987.20000 4.38088e+06
988.20000 4.38399e+06
989.20000 4.38709e+06
990.20000 4.39020e+06
991.20000 4.39330e+06
992.20000 4.39640e+06
993.20000 4.39950e+06
994.20000 4.40260e+06
995.20000 4.40570e+06
996.20000 4.40880e+06
997.20000 4.41190e+06
998.20000 4.41499e+06
999.20000 4.41809e+06
1000.20000 4.42119e+06
1001.20000 4.42428e+06
1002.20000 4.42737e+06
1003.20000 4.43046e+06
1004.20000 4.43355e+06
1005.20000 4.43664e+06
1006.20000 4.43973e+06
1007.20000 4.44282e+06
1008.20000 4.44591e+06
1009.20000 4.44900e+06
1010.20000 4.45208e+06
1011.20000 4.45517e+06
1012.20000 4.45825e+06
1013.20000 4.46133e+06
1014.20000 4.46441e+06
1015.20000 4.46749e+06
1016.20000 4.47057e+06
1017.20000 4.47365e+06
1018.20000 4.47673e+06
1019.20000 4.47981e+06
1020.20000 4.48289e+06
1021.20000 4.48596e+06
1022.20000 4.48904e+06
1023.20000 4.49211e+06
1024.20000 4.49518e+06
1025.20000 4.49825e+06
1026.20000 4.50132e+06
1027.20000 4.50439e+06
1028.20000 4.50746e+06
1029.20000 4.51053e+06
1030.20000 4.51360e+06
1031.20000 4.51667e+06
1032.20000 4.51973e+06
1033.20000 4.52280e+06
1034.20000 4.52586e+06
1035.20000 4.52892e+06
1036.20000 4.53198e+06
1037.20000 4.53505e+06
1038.20000 4.53811e+06
1039.20000 4.54117e+06
1040.20000 4.54422e+06
1041.20000 4.54728e+06
1042.20000 4.55034e+06
1043.20000 4.55339e+06
1044.20000 4.55645e+06
1045.20000 4.55950e+06
1046.20000 4.56256e+06
1047.20000 4.56561e+06
1048.20000 4.56866e+06
1049.20000 4.57171e+06
1050.20000 4.57476e+06
1051.20000 4.57781e+06
1052.20000 4.58086e+06
1053.20000 4.58390e+06
1054.20000 4.58695e+06
1055.20000 4.59000e+06
1056.20000 4.59304e+06
1057.20000 4.59608e+06
1058.20000 4.59913e+06
1059.20000 4.60217e+06
1060.20000 4.60521e+06
1061.20000 4.60825e+06
1062.20000 4.61129e+06
1063.20000 4.61433e+06
1064.20000 4.61736e+06
1065.20000 4.62040e+06
1066.20000 4.62344e+06
1067.20000 4.62647e+06
1068.20000 4.62951e+06
1069.20000 4.63254e+06
1070.20000 4.63557e+06
1071.20000 4.63860e+06
1072.20000 4.64163e+06
1073.20000 4.64466e+06
1074.20000 4.64769e+06
1075.20000 4.65072e+06
1076.20000 4.65375e+06
1077.20000 4.65678e+06
1078.20000 4.65980e+06
1079.20000 4.66283e+06
1080.20000 4.66585e+06
1081.20000 4.66887e+06
1082.20000 4.67190e+06
1083.20000 4.67492e+06
1084.20000 4.67794e+06
1085.20000 4.68096e+06
1086.20000 4.68398e+06
1087.20000 4.68700e+06
1088.20000 4.69001e+06
1089.20000 4.69303e+06
1090.20000 4.69604e+06
1091.20000 4.69906e+06
1092.20000 4.70207e+06
1093.20000 4.70509e+06
1094.20000 4.70810e+06
1095.20000 4.71111e+06
1096.20000 4.71412e+06
1097.20000 4.71713e+06
1098.20000 4.72014e+06
1099.20000 4.72315e+06
1100.20000 4.72616e+06
1101.20000 4.72916e+06
1102.20000 4.73217e+06
1103.20000 4.73517e+06
1104.20000 4.73818e+06
1105.20000 4.74118e+06
1106.20000 4.74418e+06
1107.20000 4.74719e+06
1108.20000 4.75019e+06
1109.20000 4.75319e+06
1110.20000 4.75619e+06
1111.20000 4.75918e+06
1112.20000 4.76218e+06
1113.20000 4.76518e+06
1114.20000 4.76817e+06
1115.20000 4.77117e+06
1116.20000 4.77416e+06
1117.20000 4.77716e+06
1118.20000 4.78015e+06
1119.20000 4.78314e+06
1120.20000 4.78613e+06
1121.20000 4.78912e+06
1122.20000 4.79211e+06
1123.20000 4.79510e+06
1124.20000 4.79809e+06
1125.20000 4.80108e+06
1126.20000 4.80406e+06
1127.20000 4.80705e+06
1128.20000 4.81003e+06
1129.20000 4.81302e+06
1130.20000 4.81600e+06
1131.20000 4.81898e+06
1132.20000 4.82197e+06
1133.20000 4.82495e+06
1134.20000 4.82793e+06
1135.20000 4.83091e+06
1136.20000 4.83388e+06
1137.20000 4.83686e+06
1138.20000 4.83984e+06
1139.20000 4.84282e+06
1140.20000 4.84579e+06
1141.20000 4.84877e+06
1142.20000 4.85174e+06
1143.20000 4.85471e+06
1144.20000 4.85768e+06
1145.20000 4.86066e+06
1146.20000 4.86363e+06
1147.20000 4.86660e+06
1148.20000 4.86957e+06
1149.20000 4.87253e+06
1150.20000 4.87550e+06
1151.20000 4.87847e+06
1152.20000 4.88143e+06
1153.20000 4.88440e+06
1154.20000 4.88736e+06
1155.20000 4.89033e+06
1156.20000 4.89329e+06
1157.20000 4.89625e+06
1158.20000 4.89921e+06
1159.20000 4.90217e+06
1160.20000 4.90513e+06
1161.20000 4.90809e+06
1162.20000 4.91105e+06
1163.20000 4.91401e+06
1164.20000 4.91697e+06
1165.20000 4.91992e+06
1166.20000 4.92288e+06
1167.20000 4.92583e+06
1168.20000 4.92879e+06
1169.20000 4.93174e+06
1170.20000 4.93469e+06
1171.20000 4.93764e+06
1172.20000 4.94059e+06
1173.20000 4.94354e+06
1174.20000 4.94649e+06
1175.20000 4.94944e+06
1176.20000 4.95239e+06
1177.20000 4.95534e+06
1178.20000 4.95828e+06
1179.20000 4.96123e+06
1180.20000 4.96417e+06
1181.20000 4.96712e+06
1182.20000 4.97006e+06
1183.20000 4.97300e+06
1184.20000 4.97594e+06
1185.20000 4.97888e+06
1186.20000 4.98182e+06
1187.20000 4.98476e+06
1188.20000 4.98770e+06
1189.20000 4.99064e+06
1190.20000 4.99358e+06
1191.20000 4.99652e+06
1192.20000 4.99945e+06
1193.20000 5.00239e+06
1194.20000 5.00532e+06
1195.20000 5.00825e+06
1196.20000 5.01119e+06
1197.20000 5.01412e+06
1198.20000 5.01705e+06
1199.20000 5.01998e+06
1200.20000 5.02291e+06
1201.20000 5.02584e+06
1202.20000 5.02877e+06
1203.20000 5.03170e+06
1204.20000 5.03462e+06
1205.20000 5.03755e+06
1206.20000 5.04047e+06
1207.20000 5.04340e+06
1208.20000 5.04632e+06
1209.20000 5.04925e+06
1210.20000 5.05217e+06
1211.20000 5.05509e+06
1212.20000 5.05801e+06
1213.20000 5.06093e+06
1214.20000 5.06385e+06
1215.20000 5.06677e+06
1216.20000 5.06969e+06
1217.20000 5.07261e+06
1218.20000 5.07552e+06
1219.20000 5.07844e+06
1220.20000 5.08136e+06
1221.20000 5.08427e+06
1222.20000 5.08718e+06
1223.20000 5.09010e+06
1224.20000 5.09301e+06
1225.20000 5.09592e+06
1226.20000 5.09883e+06
1227.20000 5.10174e+06
1228.20000 5.10465e+06
1229.20000 5.10756e+06
1230.20000 5.11047e+06
1231.20000 5.11338e+06
1232.20000 5.11629e+06
1233.20000 5.11919e+06
1234.20000 5.12210e+06
1235.20000 5.12500e+06
1236.20000 5.12791e+06
1237.20000 5.13081e+06
1238.20000 5.13371e+06
1239.20000 5.13661e+06
1240.20000 5.13951e+06
1241.20000 5.14242e+06
1242.20000 5.14532e+06
1243.20000 5.14821e+06
1244.20000 5.15111e+06
1245.20000 5.15401e+06
1246.20000 5.15691e+06
1247.20000 5.15980e+06
1248.20000 5.16270e+06
1249.20000 5.16559e+06
1250.20000 5.16849e+06
1251.20000 5.17138e+06
1252.20000 5.17428e+06
1253.20000 5.17717e+06
1254.20000 5.18006e+06
1255.20000 5.18295e+06
1256.20000 5.18584e+06
1257.20000 5.18873e+06
1258.20000 5.19162e+06
1259.20000 5.19451e+06
1260.20000 5.19739e+06
1261.20000 5.20028e+06
1262.20000 5.20317e+06
1263.20000 5.20605e+06
1264.20000 5.20894e+06
1265.20000 5.21182e+06
1266.20000 5.21470e+06
1267.20000 5.21758e+06
1268.20000 5.22047e+06
1269.20000 5.22335e+06
1270.20000 5.22623e+06
1271.20000 5.22911e+06
1272.20000 5.23199e+06
1273.20000 5.23487e+06
1274.20000 5.23774e+06
1275.20000 5.24062e+06
1276.20000 5.24350e+06
1277.20000 5.24637e+06
1278.20000 5.24925e+06
1279.20000 5.25212e+06
1280.20000 5.25500e+06
1281.20000 5.25787e+06
1282.20000 5.26074e+06
1283.20000 5.26361e+06
1284.20000 5.26648e+06
1285.20000 5.26935e+06
1286.20000 5.27222e+06
1287.20000 5.27509e+06
1288.20000 5.27796e+06
1289.20000 5.28083e+06
1290.20000 5.28370e+06
1291.20000 5.28656e+06
1292.20000 5.28943e+06
1293.20000 5.29229e+06
1294.20000 5.29516e+06
1295.20000 5.29802e+06
1296.20000 5.30088e+06
1297.20000 5.30375e+06
1298.20000 5.30661e+06
1299.20000 5.30947e+06
1300.20000 5.31233e+06
1301.20000 5.31519e+06
1302.20000 5.31805e+06
1303.20000 5.32091e+06
1304.20000 5.32376e+06
1305.20000 5.32662e+06
1306.20000 5.32948e+06
1307.20000 5.33233e+06
1308.20000 5.33519e+06
1309.20000 5.33804e+06
1310.20000 5.34090e+06
1311.20000 5.34375e+06
1312.20000 5.34660e+06
1313.20000 5.34945e+06
1314.20000 5.35231e+06
1315.20000 5.35516e+06
1316.20000 5.35801e+06
1317.20000 5.36086e+06
1318.20000 5.36370e+06
1319.20000 5.36655e+06
1320.20000 5.36940e+06
1321.20000 5.37225e+06
1322.20000 5.37509e+06
1323.20000 5.37794e+06
1324.20000 5.38078e+06
1325.20000 5.38363e+06
1326.20000 5.38647e+06
1327.20000 5.38931e+06
1328.20000 5.39215e+06
1329.20000 5.39500e+06
1330.20000 5.39784e+06
1331.20000 5.40068e+06
1332.20000 5.40352e+06
1333.20000 5.40636e+06
1334.20000 5.40919e+06
1335.20000 5.41203e+06
1336.20000 5.41487e+06
1337.20000 5.41771e+06
1338.20000 5.42054e+06
1339.20000 5.42338e+06
1340.20000 5.42621e+06
1341.20000 5.42904e+06
1342.20000 5.43188e+06
1343.20000 5.43471e+06
1344.20000 5.43754e+06
1345.20000 5.44037e+06
1346.20000 5.44320e+06
1347.20000 5.44603e+06
1348.20000 5.44886e+06
1349.20000 5.45169e+06
1350.20000 5.45452e+06
1351.20000 5.45735e+06
1352.20000 5.46018e+06
1353.20000 5.46300e+06
1354.20000 5.46583e+06
1355.20000 5.46865e+06
1356.20000 5.47148e+06
1357.20000 5.47430e+06
1358.20000 5.47712e+06
1359.20000 5.47995e+06
1360.20000 5.48277e+06
1361.20000 5.48559e+06
1362.20000 5.48841e+06
1363.20000 5.49123e+06
1364.20000 5.49405e+06
1365.20000 5.49687e+06
1366.20000 5.49969e+06
1367.20000 5.50250e+06
1368.20000 5.50532e+06
1369.20000 5.50814e+06
1370.20000 5.51095e+06
1371.20000 5.51377e+06
1372.20000 5.51658e+06
1373.20000 5.51940e+06
1374.20000 5.52221e+06
1375.20000 5.52502e+06
1376.20000 5.52783e+06
1377.20000 5.53065e+06
1378.20000 5.53346e+06
1379.20000 5.53627e+06
1380.20000 5.53908e+06
1381.20000 5.54189e+06
1382.20000 5.54469e+06
1383.20000 5.54750e+06
1384.20000 5.55031e+06
1385.20000 5.55311e+06
1386.20000 5.55592e+06
1387.20000 5.55873e+06
1388.20000 5.56153e+06
1389.20000 5.56433e+06
1390.20000 5.56714e+06
1391.20000 5.56994e+06
1392.20000 5.57274e+06
1393.20000 5.57555e+06
1394.20000 5.57835e+06
1395.20000 5.58115e+06
1396.20000 5.58395e+06
1397.20000 5.58675e+06
1398.20000 5.58954e+06
1399.20000 5.59234e+06
1400.20000 5.59514e+06
1401.20000 5.59794e+06
1402.20000 5.60073e+06
1403.20000 5.60353e+06
1404.20000 5.60632e+06
1405.20000 5.60912e+06
1406.20000 5.61191e+06
1407.20000 5.61471e+06
1408.20000 5.61750e+06
1409.20000 5.62029e+06
1410.20000 5.62308e+06
1411.20000 5.62587e+06
1412.20000 5.62866e+06
1413.20000 5.63145e+06
1414.20000 5.63424e+06
1415.20000 5.63703e+06
1416.20000 5.63982e+06
1417.20000 5.64261e+06
1418.20000 5.64539e+06
1419.20000 5.64818e+06
1420.20000 5.65096e+06
1421.20000 5.65375e+06
1422.20000 5.65653e+06
1423.20000 5.65932e+06
1424.20000 5.66210e+06
1425.20000 5.66488e+06
1426.20000 5.66767e+06
1427.20000 5.67045e+06
1428.20000 5.67323e+06
1429.20000 5.67601e+06
1430.20000 5.67879e+06
1431.20000 5.68157e+06
1432.20000 5.68435e+06
1433.20000 5.68712e+06
1434.20000 5.68990e+06
1435.20000 5.69268e+06
1436.20000 5.69545e+06
1437.20000 5.69823e+06
1438.20000 5.70100e+06
1439.20000 5.70378e+06
1440.20000 5.70655e+06
1441.20000 5.70933e+06
1442.20000 5.71210e+06
1443.20000 5.71487e+06
1444.20000 5.71764e+06
1445.20000 5.72041e+06
1446.20000 5.72318e+06
1447.20000 5.72595e+06
1448.20000 5.72872e+06
1449.20000 5.73149e+06
1450.20000 5.73426e+06
1451.20000 5.73703e+06
1452.20000 5.73980e+06
1453.20000 5.74256e+06
1454.20000 5.74533e+06
1455.20000 5.74809e+06
1456.20000 5.75086e+06
1457.20000 5.75362e+06
1458.20000 5.75639e+06
1459.20000 5.75915e+06
1460.20000 5.76191e+06
1461.20000 5.76467e+06
1462.20000 5.76743e+06
1463.20000 5.77020e+06
1464.20000 5.77296e+06
1465.20000 5.77571e+06
1466.20000 5.77847e+06
1467.20000 5.78123e+06
1468.20000 5.78399e+06
1469.20000 5.78675e+06
1470.20000 5.78950e+06
1471.20000 5.79226e+06
1472.20000 5.79502e+06
1473.20000 5.79777e+06
1474.20000 5.80053e+06
1475.20000 5.80328e+06
1476.20000 5.80603e+06
1477.20000 5.80879e+06
1478.20000 5.81154e+06
1479.20000 5.81429e+06
1480.20000 5.81704e+06
1481.20000 5.81979e+06
1482.20000 5.82254e+06
1483.20000 5.82529e+06
1484.20000 5.82804e+06
1485.20000 5.83079e+06
1486.20000 5.83354e+06
1487.20000 5.83628e+06
1488.20000 5.83903e+06
1489.20000 5.84178e+06
1490.20000 5.84452e+06
1491.20000 5.84727e+06
1492.20000 5.85001e+06
1493.20000 5.85276e+06
1494.20000 5.85550e+06
1495.20000 5.85824e+06
1496.20000 5.86099e+06
1497.20000 5.86373e+06
1498.20000 5.86647e+06
1499.20000 5.86921e+06
1500.20000 5.87195e+06
1501.20000 5.87469e+06
1502.20000 5.87743e+06
1503.20000 5.88017e+06
1504.20000 5.88290e+06
1505.20000 5.88564e+06
1506.20000 5.88838e+06
1507.20000 5.89112e+06
1508.20000 5.89385e+06
1509.20000 5.89659e+06
1510.20000 5.89932e+06
1511.20000 5.90206e+06
1512.20000 5.90479e+06
1513.20000 5.90752e+06
1514.20000 5.91025e+06
1515.20000 5.91299e+06
1516.20000 5.91572e+06
1517.20000 5.91845e+06
1518.20000 5.92118e+06
1519.20000 5.92391e+06
1520.20000 5.92664e+06
1521.20000 5.92937e+06
1522.20000 5.93210e+06
1523.20000 5.93482e+06
1524.20000 5.93755e+06
1525.20000 5.94028e+06
1526.20000 5.94300e+06
1527.20000 5.94573e+06
1528.20000 5.94845e+06
1529.20000 5.95118e+06
1530.20000 5.95390e+06
1531.20000 5.95663e+06
1532.20000 5.95935e+06
1533.20000 5.96207e+06
1534.20000 5.96479e+06
1535.20000 5.96751e+06
1536.20000 5.97023e+06
1537.20000 5.97295e+06
1538.20000 5.97567e+06
1539.20000 5.97839e+06
1540.20000 5.98111e+06
1541.20000 5.98383e+06
1542.20000 5.98655e+06
1543.20000 5.98926e+06
1544.20000 5.99198e+06
1545.20000 5.99470e+06
1546.20000 5.99741e+06
1547.20000 6.00013e+06
1548.20000 6.00284e+06
1549.20000 6.00556e+06
1550.20000 6.00827e+06
1551.20000 6.01098e+06
1552.20000 6.01369e+06
1553.20000 6.01641e+06
1554.20000 6.01912e+06
1555.20000 6.02183e+06
1556.20000 6.02454e+06
1557.20000 6.02725e+06
1558.20000 6.02996e+06
1559.20000 6.03266e+06
1560.20000 6.03537e+06
1561.20000 6.03808e+06
1562.20000 6.04079e+06
1563.20000 6.04349e+06
1564.20000 6.04620e+06
1565.20000 6.04891e+06
1566.20000 6.05161e+06
1567.20000 6.05432e+06
1568.20000 6.05702e+06
1569.20000 6.05972e+06
1570.20000 6.06243e+06
1571.20000 6.06513e+06
1572.20000 6.06783e+06
1573.20000 6.07053e+06
1574.20000 6.07323e+06
1575.20000 6.07593e+06
1576.20000 6.07863e+06
1577.20000 6.08133e+06
1578.20000 6.08403e+06
1579.20000 6.08673e+06
1580.20000 6.08943e+06
1581.20000 6.09212e+06
1582.20000 6.09482e+06
1583.20000 6.09752e+06
1584.20000 6.10021e+06
1585.20000 6.10291e+06
1586.20000 6.10560e+06
1587.20000 6.10830e+06
1588.20000 6.11099e+06
1589.20000 6.11368e+06
1590.20000 6.11638e+06
1591.20000 6.11907e+06
1592.20000 6.12176e+06
1593.20000 6.12445e+06
1594.20000 6.12714e+06
1595.20000 6.12983e+06
1596.20000 6.13252e+06
1597.20000 6.13521e+06
1598.20000 6.13790e+06
1599.20000 6.14059e+06
1600.20000 6.14327e+06
1601.20000 6.14596e+06
1602.20000 6.14865e+06
1603.20000 6.15133e+06
1604.20000 6.15402e+06
1605.20000 6.15670e+06
1606.20000 6.15939e+06
1607.20000 6.16207e+06
1608.20000 6.16476e+06
1609.20000 6.16744e+06
1610.20000 6.17012e+06
1611.20000 6.17280e+06
1612.20000 6.17549e+06
1613.20000 6.17817e+06
1614.20000 6.18085e+06
1615.20000 6.18353e+06
1616.20000 6.18621e+06
1617.20000 6.18889e+06
1618.20000 6.19157e+06
1619.20000 6.19424e+06
1620.20000 6.19692e+06
1621.20000 6.19960e+06
1622.20000 6.20227e+06
1623.20000 6.20495e+06
1624.20000 6.20763e+06
1625.20000 6.21030e+06
1626.20000 6.21298e+06
1627.20000 6.21565e+06
1628.20000 6.21832e+06
1629.20000 6.22100e+06
1630.20000 6.22367e+06
1631.20000 6.22634e+06
1632.20000 6.22901e+06
1633.20000 6.23168e+06
1634.20000 6.23436e+06
1635.20000 6.23703e+06
1636.20000 6.23970e+06
1637.20000 6.24236e+06
1638.20000 6.24503e+06
1639.20000 6.24770e+06
1640.20000 6.25037e+06
1641.20000 6.25304e+06
1642.20000 6.25570e+06
1643.20000 6.25837e+06
1644.20000 6.26104e+06
1645.20000 6.26370e+06
1646.20000 6.26637e+06
1647.20000 6.26903e+06
1648.20000 6.27169e+06
1649.20000 6.27436e+06
1650.20000 6.27702e+06
1651.20000 6.27968e+06
1652.20000 6.28234e+06
1653.20000 6.28501e+06
1654.20000 6.28767e+06
1655.20000 6.29033e+06
1656.20000 6.29299e+06
1657.20000 6.29565e+06
1658.20000 6.29831e+06
1659.20000 6.30096e+06
1660.20000 6.30362e+06
1661.20000 6.30628e+06
1662.20000 6.30894e+06
1663.20000 6.31159e+06
1664.20000 6.31425e+06
1665.20000 6.31691e+06
1666.20000 6.31956e+06
1667.20000 6.32222e+06
1668.20000 6.32487e+06
1669.20000 6.32752e+06
1670.20000 6.33018e+06
1671.20000 6.33283e+06
1672.20000 6.33548e+06
1673.20000 6.33813e+06
1674.20000 6.34079e+06
1675.20000 6.34344e+06
1676.20000 6.34609e+06
1677.20000 6.34874e+06
1678.20000 6.35139e+06
1679.20000 6.35404e+06
1680.20000 6.35668e+06
1681.20000 6.35933e+06
1682.20000 6.36198e+06
1683.20000 6.36463e+06
1684.20000 6.36727e+06
1685.20000 6.36992e+06
1686.20000 6.37257e+06
1687.20000 6.37521e+06
1688.20000 6.37786e+06
1689.20000 6.38050e+06
1690.20000 6.38314e+06
1691.20000 6.38579e+06
1692.20000 6.38843e+06
1693.20000 6.39107e+06
1694.20000 6.39371e+06
1695.20000 6.39636e+06
1696.20000 6.39900e+06
1697.20000 6.40164e+06
1698.20000 6.40428e+06
1699.20000 6.40692e+06
1700.20000 6.40956e+06
1701.20000 6.41219e+06
1702.20000 6.41483e+06
1703.20000 6.41747e+06
1704.20000 6.42011e+06
1705.20000 6.42274e+06
1706.20000 6.42538e+06
1707.20000 6.42802e+06
1708.20000 6.43065e+06
1709.20000 6.43329e+06
1710.20000 6.43592e+06
1711.20000 6.43856e+06
1712.20000 6.44119e+06
1713.20000 6.44382e+06
1714.20000 6.44646e+06
1715.20000 6.44909e+06
1716.20000 6.45172e+06
1717.20000 6.45435e+06
1718.20000 6.45698e+06
1719.20000 6.45961e+06
1720.20000 6.46224e+06
1721.20000 6.46487e+06
1722.20000 6.46750e+06
1723.20000 6.47013e+06
1724.20000 6.47276e+06
1725.20000 6.47538e+06
1726.20000 6.47801e+06
1727.20000 6.48064e+06
1728.20000 6.48326e+06
1729.20000 6.48589e+06
1730.20000 6.48852e+06
1731.20000 6.49114e+06
1732.20000 6.49376e+06
1733.20000 6.49639e+06
1734.20000 6.49901e+06
1735.20000 6.50164e+06
1736.20000 6.50426e+06
1737.20000 6.50688e+06
1738.20000 6.50950e+06
1739.20000 6.51212e+06
1740.20000 6.51474e+06
1741.20000 6.51736e+06
1742.20000 6.51998e+06
1743.20000 6.52260e+06
1744.20000 6.52522e+06
1745.20000 6.52784e+06
1746.20000 6.53046e+06
1747.20000 6.53308e+06
1748.20000 6.53569e+06
1749.20000 6.53831e+06
1750.20000 6.54093e+06
1751.20000 6.54354e+06
1752.20000 6.54616e+06
1753.20000 6.54877e+06
1754.20000 6.55139e+06
1755.20000 6.55400e+06
1756.20000 6.55662e+06
1757.20000 6.55923e+06
1758.20000 6.56184e+06
1759.20000 6.56445e+06
1760.20000 6.56707e+06
1761.20000 6.56968e+06
1762.20000 6.57229e+06
1763.20000 6.57490e+06
1764.20000 6.57751e+06
1765.20000 6.58012e+06
1766.20000 6.58273e+06
1767.20000 6.58534e+06
1768.20000 6.58794e+06
1769.20000 6.59055e+06
1770.20000 6.59316e+06
1771.20000 6.59577e+06
1772.20000 6.59837e+06
1773.20000 6.60098e+06
1774.20000 6.60358e+06
1775.20000 6.60619e+06
1776.20000 6.60879e+06
1777.20000 6.61140e+06
1778.20000 6.61400e+06
1779.20000 6.61661e+06
1780.20000 6.61921e+06
1781.20000 6.62181e+06
1782.20000 6.62441e+06
1783.20000 6.62702e+06
1784.20000 6.62962e+06
1785.20000 6.63222e+06
1786.20000 6.63482e+06
1787.20000 6.63742e+06
1788.20000 6.64002e+06
1789.20000 6.64262e+06
1790.20000 6.64521e+06
1791.20000 6.64781e+06
1792.20000 6.65041e+06
1793.20000 6.65301e+06
1794.20000 6.65560e+06
1795.20000 6.65820e+06
1796.20000 6.66080e+06
1797.20000 6.66339e+06
1798.20000 6.66599e+06
1799.20000 6.66858e+06
1800.20000 6.67118e+06
1801.20000 6.67377e+06
1802.20000 6.67636e+06
1803.20000 6.67896e+06
1804.20000 6.68155e+06
1805.20000 6.68414e+06
1806.20000 6.68673e+06
1807.20000 6.68932e+06
1808.20000 6.69192e+06
1809.20000 6.69451e+06
1810.20000 6.69710e+06
1811.20000 6.69969e+06
1812.20000 6.70227e+06
1813.20000 6.70486e+06
1814.20000 6.70745e+06
1815.20000 6.71004e+06
1816.20000 6.71263e+06
1817.20000 6.71521e+06
1818.20000 6.71780e+06
1819.20000 6.72039e+06
1820.20000 6.72297e+06
1821.20000 6.72556e+06
1822.20000 6.72814e+06
1823.20000 6.73073e+06
1824.20000 6.73331e+06
1825.20000 6.73589e+06
1826.20000 6.73848e+06
1827.20000 6.74106e+06
1828.20000 6.74364e+06
1829.20000 6.74622e+06
1830.20000 6.74881e+06
1831.20000 6.75139e+06
1832.20000 6.75397e+06
1833.20000 6.75655e+06
1834.20000 6.75913e+06
1835.20000 6.76171e+06
1836.20000 6.76429e+06
1837.20000 6.76686e+06
1838.20000 6.76944e+06
1839.20000 6.77202e+06
1840.20000 6.77460e+06
1841.20000 6.77717e+06
1842.20000 6.77975e+06
1843.20000 6.78233e+06
1844.20000 6.78490e+06
1845.20000 6.78748e+06
1846.20000 6.79005e+06
1847.20000 6.79263e+06
1848.20000 6.79520e+06
1849.20000 6.79777e+06
1850.20000 6.80035e+06
1851.20000 6.80292e+06
1852.20000 6.80549e+06
1853.20000 6.80806e+06
1854.20000 6.81063e+06
1855.20000 6.81320e+06
1856.20000 6.81578e+06
1857.20000 6.81835e+06
1858.20000 6.82091e+06
1859.20000 6.82348e+06
1860.20000 6.82605e+06
1861.20000 6.82862e+06
1862.20000 6.83119e+06
1863.20000 6.83376e+06
1864.20000 6.83632e+06
1865.20000 6.83889e+06
1866.20000 6.84146e+06
1867.20000 6.84402e+06
1868.20000 6.84659e+06
1869.20000 6.84915e+06
1870.20000 6.85172e+06
1871.20000 6.85428e+06
1872.20000 6.85685e+06
1873.20000 6.85941e+06
1874.20000 6.86197e+06
1875.20000 6.86454e+06
1876.20000 6.86710e+06
1877.20000 6.86966e+06
1878.20000 6.87222e+06
1879.20000 6.87478e+06
1880.20000 6.87734e+06
1881.20000 6.87990e+06
1882.20000 6.88246e+06
1883.20000 6.88502e+06
1884.20000 6.88758e+06
1885.20000 6.89014e+06
1886.20000 6.89270e+06
1887.20000 6.89526e+06
1888.20000 6.89781e+06
1889.20000 6.90037e+06
1890.20000 6.90293e+06
1891.20000 6.90548e+06
1892.20000 6.90804e+06
1893.20000 6.91060e+06
1894.20000 6.91315e+06
1895.20000 6.91570e+06
1896.20000 6.91826e+06
1897.20000 6.92081e+06
1898.20000 6.92337e+06
1899.20000 6.92592e+06
1900.20000 6.92847e+06
1901.20000 6.93102e+06
1902.20000 6.93358e+06
1903.20000 6.93613e+06
1904.20000 6.93868e+06
1905.20000 6.94123e+06
1906.20000 6.94378e+06
1907.20000 6.94633e+06
1908.20000 6.94888e+06
1909.20000 6.95143e+06
1910.20000 6.95397e+06
1911.20000 6.95652e+06
1912.20000 6.95907e+06
1913.20000 6.96162e+06
1914.20000 6.96416e+06
1915.20000 6.96671e+06
1916.20000 6.96926e+06
1917.20000 6.97180e+06
1918.20000 6.97435e+06
1919.20000 6.97689e+06
1920.20000 6.97944e+06
1921.20000 6.98198e+06
1922.20000 6.98453e+06
1923.20000 6.98707e+06
1924.20000 6.98961e+06
1925.20000 6.99215e+06
1926.20000 6.99470e+06
1927.20000 6.99724e+06
1928.20000 6.99978e+06
1929.20000 7.00232e+06
1930.20000 7.00486e+06
1931.20000 7.00740e+06
1932.20000 7.00994e+06
1933.20000 7.01248e+06
1934.20000 7.01502e+06
1935.20000 7.01756e+06
1936.20000 7.02010e+06
1937.20000 7.02263e+06
1938.20000 7.02517e+06
1939.20000 7.02771e+06
1940.20000 7.03025e+06
1941.20000 7.03278e+06
1942.20000 7.03532e+06
1943.20000 7.03785e+06
1944.20000 7.04039e+06
1945.20000 7.04292e+06
1946.20000 7.04546e+06
1947.20000 7.04799e+06
1948.20000 7.05052e+06
1949.20000 7.05306e+06
1950.20000 7.05559e+06
1951.20000 7.05812e+06
1952.20000 7.06065e+06
1953.20000 7.06319e+06
1954.20000 7.06572e+06
1955.20000 7.06825e+06
1956.20000 7.07078e+06
1957.20000 7.07331e+06
1958.20000 7.07584e+06
1959.20000 7.07837e+06
1960.20000 7.08090e+06
1961.20000 7.08342e+06
1962.20000 7.08595e+06
1963.20000 7.08848e+06
1964.20000 7.09101e+06
1965.20000 7.09353e+06
1966.20000 7.09606e+06
1967.20000 7.09859e+06
1968.20000 7.10111e+06
1969.20000 7.10364e+06
1970.20000 7.10616e+06
1971.20000 7.10869e+06
1972.20000 7.11121e+06
1973.20000 7.11374e+06
1974.20000 7.11626e+06
1975.20000 7.11878e+06
1976.20000 7.12130e+06
1977.20000 7.12383e+06
1978.20000 7.12635e+06
1979.20000 7.12887e+06
1980.20000 7.13139e+06
1981.20000 7.13391e+06
1982.20000 7.13643e+06
1983.20000 7.13895e+06
1984.20000 7.14147e+06
1985.20000 7.14399e+06
1986.20000 7.14651e+06
1987.20000 7.14903e+06
1988.20000 7.15155e+06
1989.20000 7.15406e+06
1990.20000 7.15658e+06
1991.20000 7.15910e+06
1992.20000 7.16162e+06
1993.20000 7.16413e+06
1994.20000 7.16665e+06
1995.20000 7.16916e+06
1996.20000 7.17168e+06
1997.20000 7.17419e+06
1998.20000 7.17671e+06
1999.20000 7.17922e+06
